Folder: BET_isotherms_reproducibility

Note: README.md
# Brunauer–Emmett–Teller (BET) fitting of isotherms

This repository contains the code used for [BET adsorption isotherm fitting](https://en.wikipedia.org/wiki/BET_theory) in [our group](https://www.coudert.name). It is part of the crowd-science work performed in the following paper: [“How Reproducible are Surface Areas Calculated from the BET Equation?”](https://doi.org/10.1002/adma.202201502), J. W. M. Osterrieth et al., _Adv. Mater._, **2022**, DOI: [10.1002/adma.202201502](https://doi.org/10.1002/adma.202201502)



## Description

The code requires Python ≥ 3.6 and scientific packages `numpy`, `scipy`, and `matplotlib`. The code is stored in a module named `BET.py` and for each isotherm a Jupyter notebook is available showing the parameters chosen and the fit obtained (from [`A.ipynb`](A.ipynb) to [`R.ipynb`](R.ipynb)).

The typical criteria (from Rouquerol et al., _Is the BET Equation Applicable to Microporous Adsorbents?_) for fitting are automatically checked, and the quality of the least-square linear fit (_R_<sup>2</sup> coefficient) is displayed. Both the BET function and the Rouquerol function are also plotted for visual confirmation of the fit.

![](example.png|width=500px)

File: A.csv
Relative Pressure (P/Po),Quantity Adsorbed (cm3/g STP)
4.60E-07,40.0619
8.08E-07,80.4072
1.24E-06,120.81
1.95E-06,161.346
3.47E-06,201.419
1.98E-05,241.979
3.01E-05,257.697
3.99E-05,270.301
4.84E-05,281.855
6.00E-05,300.578
7.19E-05,321.812
8.00E-05,339.075
9.10E-05,361.551
0.000122165,401.272
0.000169951,423.878
0.000240034,439.55
0.000469896,457.443
0.001029937,475.051
0.002010342,481.639
0.003045762,484.988
0.003948507,486.934
0.004830186,488.383
0.005912671,489.809
0.006904737,490.894
0.007945685,491.88
0.00893684,492.697
0.009950202,493.474
0.0195664,498.483
0.02937333,502.408
0.0395738,506.352
0.0530488,511.815
0.0597825,514.501
0.0702859,517.395
0.0803821,519.604
0.0906934,521.579
0.100864,523.325
0.145578,529.464
0.201715,534.855
0.255898,538.784
0.306355,541.743
0.355727,543.883
0.400711,545.907
0.450996,547.906
0.500912,549.683
0.550729,551.272
0.60054,552.723
0.650424,554.08
0.699409,555.288
0.74943,556.441
0.79959,557.558
0.810604,557.968
0.82075,558.192
0.830251,558.396
0.840611,558.605
0.85009,558.783
0.86014,558.974
0.870537,559.185
0.880439,559.387
0.890352,559.564
0.900085,559.749
0.909886,559.956
0.920408,560.163
0.930174,560.367
0.940068,560.56
0.949687,560.791
0.959834,561.013
0.969298,561.252
0.979272,561.538
0.989261,561.839
0.998416,562.449

File: B.csv
Relative Pressure (P/Po),Quantity Adsorbed (cm3/g STP)
4.20E-05,1.53E+01
9.97E-05,3.06E+01
0.000148121,4.58E+01
0.000188506,6.11E+01
0.000224278,7.64E+01
0.000259844,9.18E+01
0.000299953,1.07E+02
0.000349057,1.22E+02
0.000417927,1.38E+02
0.000521085,1.53E+02
0.000684773,1.68E+02
0.000949862,1.83E+02
0.001422718,1.98E+02
0.00193056,2.07E+02
0.002936687,2.17E+02
0.003871099,2.22E+02
0.004945074,2.27E+02
0.005730774,2.30E+02
0.006698907,2.35E+02
0.008054492,2.43E+02
0.008892109,2.47E+02
0.009781263,2.50E+02
0.02074716,2.68E+02
0.0291109,2.74E+02
0.0381637,3.01E+02
0.04836001,3.11E+02
0.0637743,3.16E+02
0.0697769,3.17E+02
0.08004303,3.19E+02
0.0900836,3.20E+02
0.10043,3.22E+02
0.145027,3.26E+02
0.20271,3.30E+02
0.25486,3.33E+02
0.305344,3.36E+02
0.354387,3.38E+02
0.39927,3.40E+02
0.449413,3.42E+02
0.499422,3.44E+02
0.549131,3.46E+02
0.599553,3.48E+02
0.648966,3.50E+02
0.699056,3.52E+02
0.748964,3.54E+02
0.7992439,3.57E+02
0.809236,3.58E+02
0.819317,3.58E+02
0.829267,3.59E+02
0.839404,3.60E+02
0.850175,3.61E+02
0.859576,3.62E+02
0.86908,3.63E+02
0.879065,3.64E+02
0.889537,3.65E+02
0.899628,3.67E+02
0.909863,3.68E+02
0.919855,3.70E+02
0.929147,3.72E+02
0.939056,3.75E+02
0.948885,3.78E+02
0.959088,3.83E+02
0.969052,3.89E+02
0.978076,3.98E+02
0.986984,4.13E+02
0.994456,4.40E+02

File: C.csv
Relative Pressure (P/Po),Quantity Adsorbed (cm3/g STP)
0.003831,196.3288
0.004887863,208.56
0.005746,224.1544
0.006480225,248.32
0.006637632,254.88
0.007204856,275.68
0.007662,284.4448
0.009205078,291.28
0.011492,296.8112
0.0133933,302.32
0.0185368,315.84
0.02107,321.5456
0.028731,335.4592
0.049801,358.6472
0.0668035,370.4
0.080447,378.744
0.099601,391.1112
0.109178,395.7488
0.120671,403.4784
0.133721,412.4
0.147487,422.0288
0.160894,431.304
0.168556,437.488
0.178132,445.2176
0.18771,452.9472
0.197287,466.86
0.199488,480.16
0.201118,491.5944
0.204948,514.7824
0.206864,528.696
0.208462,542.56
0.210695,554.976
0.224103,559.6136
0.268157,565.7968
0.298803,567.3432
0.33328,570.4344
0.358181,573.5264
0.402235,576.6184
0.45012,579.7104
0.503751,581.256
0.530567,582.8016
0.555468,584.348
0.603353,584.348
0.655069,587.44
0.704869,588.9856
0.735516,590.5312
0.760417,590.5312
0.806386,593.6232
0.856187,593.6232
0.904072,596.7152
0.940464,598.2608
0.999842,605.9904

File: D.csv
Relative Pressure (P/Po),Quantity Adsorbed (cm3/g STP)
7.24E-05,0.0595498
0.000143586,3.02618
0.000194756,16.5373
0.00022592,29.8425
0.000262361,43.3684
0.000320934,56.892
0.000342678,57.5047
0.000410737,66.8184
0.000490593,80.3333
0.000529528,87.699
0.000645145,101.19
0.000669906,101.409
0.000824694,114.924
0.001013574,128.372
0.00101671,128.466
0.00130365,141.303
0.00169959,154.676
0.00211443,164.405
0.00259059,173.376
0.003406121,184.951
0.004145448,193.595
0.005452415,205.551
0.006729352,215.109
0.008632363,226.66
0.0108917,237.828
0.0138006,249.476
0.0174006,261.327
0.02206847,273.992
0.0278236,287.17
0.034458,300.44
0.04178732,313.632
0.0448685,318.818
0.0530044,331.894
0.0548013,334.664
0.065061,349.731
0.0717499,359.363
0.081786,375.011
0.088454,386.49
0.0995423,402.643
0.114468,415.035
0.139194,428.365
0.155311,435.855
0.181102,449.341
0.192015,466.693
0.206189,484.391
0.246716,489.941
0.302737,494.795
0.372466,499.262
0.474121,504.055
0.537798,506.442
0.6024543,508.531
0.643579,509.766
0.684178,510.918
0.724253,512.042
0.764418,513.179
0.790465,513.941
0.815945,514.723
0.841291,515.569
0.866639,516.516
0.913919,518.889
0.941891,521.245
0.965929,525.373

File: E.csv
Relative Pressure (P/Po),Quantity Adsorbed (cm3/g STP)
1.23E-07,3.14276
2.48E-07,6.29656
3.50E-07,9.44781
5.48E-07,12.6073
7.55E-07,15.7466
9.99E-07,18.8807
1.22E-06,22.0485
1.47E-06,25.2042
1.97E-06,28.3642
2.84E-06,31.5268
3.85E-06,34.6649
5.17E-06,37.8177
6.88E-06,40.9696
8.83E-06,44.124
1.14E-05,47.2939
1.44E-05,50.4557
1.78E-05,53.6007
2.15E-05,56.7644
2.54E-05,59.9317
2.91E-05,63.0736
3.30E-05,66.244
3.67E-05,69.3873
4.04E-05,72.5567
4.40E-05,75.7343
4.76E-05,78.9096
5.12E-05,82.0853
5.48E-05,85.2537
5.86E-05,88.4367
6.25E-05,91.5898
6.65E-05,94.7497
7.07E-05,97.9136
7.53E-05,101.082
7.99E-05,104.232
8.49E-05,107.407
9.02E-05,110.563
9.59E-05,113.725
0.000101866,116.885
0.00010843,120.037
0.000115669,123.209
0.000123923,126.372
0.000132532,129.555
0.000142085,132.715
0.000152225,135.874
0.000163528,139.024
0.000175053,142.18
0.000188404,145.343
0.000203102,148.499
0.000219533,151.656
0.000237273,154.81
0.000256856,157.972
0.000278382,161.131
0.000302122,164.285
0.000328336,167.458
0.000357464,170.61
0.000389421,173.76
0.000425039,176.915
0.00046396,180.048
0.000507494,183.185
0.000555773,186.325
0.000609421,189.462
0.000668535,192.576
0.000733715,195.667
0.000805316,198.744
0.0008836,201.805
0.000969555,204.84
0.001180284,210.75
0.001369924,215.625
0.001659897,222.125
0.001983868,228.303
0.002481232,236
0.0029778,242.444
0.003900276,252.608
0.004901601,261.85
0.005748579,268.693
0.006815202,276.193
0.007932263,283.089
0.008908562,288.492
0.009924807,293.679
0.0122161,302.5
0.0153445,312.875
0.020657,325.265
0.029154,334.583
0.0430383,343.115
0.05607993,348.098
0.060133,349.348
0.0703102,352.02
0.0804443,354.247
0.090171,356.089
0.100546,357.806
0.110564,359.308
0.120602,360.648
0.130586,361.876
0.140095,362.9875
0.150375,364.08
0.160508,365.064
0.170668,366.006
0.179966,366.858
0.190646,367.761
0.200302,368.532
0.210335,369.298
0.220488,370.038
0.230573,370.733
0.240847,371.443
0.250568,372.081
0.260795,372.728
0.269581,373.295
0.280302,373.918
0.290696,374.515
0.300169,375
0.319237,376.055
0.340946,377.178
0.360937,378.1712
0.380701,379.12
0.401084,380.083
0.421098,380.993
0.440715,381.885
0.460879,382.784
0.479423,383.658
0.500683,384.594
0.519295,385.466
0.540989,386.391
0.559147,387.258
0.580858,388.222
0.600769,389.126
0.620649,390.025
0.640945,390.979
0.660587,391.921
0.680476,392.947
0.699493,394.038
0.71941,395.239
0.739506,396.489
0.759643,397.876
0.779643,399.35
0.799645,400.952
0.809048,401.834
0.820769,402.892
0.829733,403.822
0.839253,404.894
0.850506,406.143
0.860631,407.47
0.869346,408.682
0.880763,410.363
0.889853,411.875
0.900879,413.907
0.909389,415.727
0.919316,418.122
0.929206,420.971
0.939179,424.527
0.94913,429.158
0.986264,505.283
0.989723,549.188
0.992202,627.466

File: F.csv
Relative Pressure (P/Po),Quantity Adsorbed (cm3/g STP)
6.51E-05,0.244097
9.45E-05,0.478995
0.000140029,0.821924
0.000168502,1.58255
0.000212523,4.16358
0.000256869,31.4546
0.000285953,58.7555
0.000318927,86.0442
0.00032856,87.1132
0.000397185,92.4769
0.000427058,119.792
0.000458442,147.035
0.000511064,174.245
0.000580619,199.028
0.000637337,213.915
0.000890495,240.898
0.001019138,250.063
0.001355172,261.038
0.001632038,267.524
0.002111946,274.481
0.002599008,279.467
0.003298337,285.049
0.004368838,290.668
0.005230467,294.122
0.006777789,298.739
0.008474152,302.64
0.0107617,306.867
0.0140771,311.177
0.0170254,314.208
0.0221382,318.252
0.027921,321.798
0.0355329,325.31
0.0447292,328.592
0.0568625,331.969
0.0746405,335.633
0.0944469,338.778
0.119932,341.942
0.14986,344.911
0.188607,348.0485
0.237609,351.323
0.302415,355.159
0.375745,359.345
0.474393,365.458
0.538919,370.375
0.60262,376.3
0.644038,381.056
0.684098,386.449
0.723912,392.697
0.763564,400.121
0.790607,405.934
0.815629,411.99
0.840577,418.912
0.865723,427.081
0.91707,453.037
0.94041,474.602
0.96198,504.729
0.97071,522.703

File: G.csv
Relative Pressure (P/Po),Quantity Adsorbed (cm3/g STP)
2.00E-05,1.52367
5.79E-05,1.91071
9.07E-05,2.66707
9.97E-05,4.41112
0.000120002,11.3383
0.000135878,19.3706
0.000149981,30.3233
0.000153726,34.3444
0.000162203,48.2123
0.000169951,56.782
0.00017989,63.1762
0.000206222,66.2429
0.000247599,67.9809
0.000279922,73.985
0.00030673,82.9419
0.000320061,88.8722
0.000331941,97.8723
0.000340176,112.714
0.000410145,122.331
0.000537827,127.281
0.000900104,132.256
0.001686888,136.648
0.00209589,137.723
0.002623178,138.772
0.003299735,139.786
0.004185916,140.758
0.005255232,141.621
0.006657108,142.475
0.008491008,143.32
0.01080895,144.117
0.0136723,144.859
0.0173791,145.587
0.02212,146.275
0.0279722,146.918
0.0355024,147.565
0.04518963,148.186
0.0571048,148.763
0.0735038,149.37
0.0928973,149.911
0.117365,150.427
0.148033,150.916
0.186992,151.385
0.23627,151.819
0.298619,152.22
0.376376,152.568
0.475677,152.864
0.5396658,153.023
0.603275,153.153
0.644041,153.239
0.684269,153.322
0.724374,153.405
0.764422,153.498
0.790647,153.569
0.815998,153.657
0.841458,153.741
0.866632,153.847
0.915619,154.16
0.942539,154.519
0.967869,155.161

File: H.csv
Relative Pressure (P/Po),Quantity Adsorbed (cm3/g STP)
3.41E-05,2.14379
5.85E-05,2.66986
8.29E-05,7.50726
0.000106975,23.42
0.000125602,39.3335
0.000144069,55.2443
0.000163778,71.1472
0.000187348,87.0443
0.000208741,94.1148
0.00026291,98.7054
0.00032538,114.604
0.000393299,130.444
0.00040154,132.919
0.000460131,142.16
0.000541423,148.693
0.000650309,150.741
0.000858217,155.559
0.001130007,160.84
0.001352074,163.636
0.001629688,166.287
0.002048444,169.48
0.002672633,173.085
0.00340465,175.885
0.004236093,177.895
0.005229068,179.579
0.006804549,181.615
0.008670638,183.274
0.0106025,184.528
0.0135606,185.994
0.0175136,187.403
0.02198175,188.555
0.0277976,189.716
0.0355583,190.913
0.0450877,192.051
0.0570843,193.185
0.0738528,194.384
0.0935045,195.535
0.117918,196.679
0.148441,197.878
0.187453,199.153
0.236738,200.539
0.301022,202.061
0.376151,203.657
0.475698,205.577
0.539979,206.648
0.603025,207.661
0.644358,208.233
0.684219,208.742
0.724397,209.23
0.764352,209.772
0.790607,210.144
0.815986,210.524
0.841262,210.98
0.866822,211.488
0.914684,212.8
0.942892,213.872
0.967733,215.327

File: I.csv
Relative Pressure (P/Po),Quantity Adsorbed (cm3/g STP)
8.48E-07,13.2904
2.29E-06,26.7097
5.69E-06,40.067
1.04E-05,53.4264
2.12E-05,66.7766
4.17E-05,80.1174
8.81E-05,93.4455
0.00019284,106.73
0.000441225,119.963
0.000989339,132.642
0.001921761,143.498
0.00291461,150.651
0.003944906,155.984
0.004813169,159.489
0.00594435,163.24
0.006835363,165.731
0.007914356,168.372
0.008883336,170.507
0.009932936,172.601
0.01909818,187.146
0.029133,199.946
0.0384295,211.097
0.0508289,221.572
0.0573561,225.586
0.0698217,231.426
0.0802729,235.003
0.0905916,237.593
0.100872,239.603
0.145608,245.338
0.204339,249.807
0.256823,252.77
0.307448,255.224
0.355312,257.329
0.400438,259.179
0.450467,261.114
0.500563,262.99
0.550629,264.847
0.600467,266.759
0.650694,268.785
0.70078,271.02
0.749541,273.477
0.799036,276.521
0.809765,277.414
0.820898,278.262
0.830183,279.047
0.840518,279.954
0.850135,280.862
0.860012,281.881
0.870324,283.036
0.880063,284.263
0.890037,285.663
0.899697,287.222
0.910225,289.143
0.920572,291.327
0.929732,293.798
0.939226,296.833
0.948783,300.921
0.959005,306.778
0.968528,315.037
0.977413,328.069
0.986178,349.141
0.992911,378.202

File: J.csv
Relative Pressure (P/Po),Quantity Adsorbed (cm3/g STP)
4.88E-05,1.295
0.000103039,2.38504
0.000152256,2.69464
0.000192992,3.37627
0.000227689,3.93878
0.000262075,4.75666
0.000339317,22.3177
0.000410328,47.099
0.000436056,55.5998
0.000530897,80.3664
0.00068157,104.392
0.000825555,114.796
0.001018034,123.347
0.001387476,140.757
0.001754256,155.485
0.002082039,167.921
0.002634584,192.642
0.003096,217.407
0.003421564,238.366
0.00373714,263.099
0.003990249,287.829
0.004203087,312.531
0.004384442,337.233
0.004550507,361.904
0.004701429,386.586
0.004831217,411.272
0.004959268,435.905
0.005083147,460.562
0.005198735,485.206
0.005324749,509.794
0.005452929,534.425
0.005573198,559.03
0.005699939,583.681
0.005873153,608.256
0.006055369,633.048
0.006277627,657.605
0.006538265,682.214
0.006870036,706.755
0.007278209,731.329
0.007840088,755.753
0.008534543,779.804
0.009537856,803.998
0.01071683,824.871
0.0127169,849.146
0.0133568,854.765
0.0167836,878.945
0.017191,880.796
0.0216641,899.701
0.0295578,920.725
0.0374968,934.109
0.043816,941.933
0.0563548,953.782
0.0750008,965.956
0.0946229,975.037
0.12134,984.182
0.148705,991.53
0.186664,1000
0.233461,1009.4
0.292644,1020.29
0.376873,1032.24
0.477272,1039.1
0.557468,1041.13
0.622325,1041.65
0.663689,1041.53
0.703953,1041.24
0.744085,1040.86
0.784235,1040.39
0.81037,1039.94
0.835704,1039.59
0.861221,1039.14
0.886535,1038.71
0.936029,1037.9
0.962544,1037.52
0.987972,1037.37

File: K.csv
Relative Pressure (P/Po),Quantity Adsorbed (cm3/g STP)
4.75E-05,0.399389
9.69E-05,0.790258
0.000123181,0.849467
0.000128577,0.901646
0.000164533,1.30537
0.000217301,8.21506
0.000257214,21.8738
0.000279122,35.5342
0.000300744,49.1915
0.000322968,62.8484
0.000351409,76.9742
0.000368692,90.6289
0.000383691,104.284
0.000393716,117.939
0.000410668,131.592
0.000431396,145.25
0.000433515,158.907
0.000434096,172.56
0.00044681,186.21
0.000448218,213.519
0.000460131,291.125
0.000469896,332.636
0.000479868,361.132
0.000495921,402.217
0.000505841,428.266
0.000522755,441.905
0.000561279,455.535
0.000612371,481.522
0.000762905,495.114
0.001046492,508.667
0.001338775,516.079
0.001690835,522.206
0.002200656,528.546
0.002830961,535.559
0.003348623,542.795
0.003953084,556.291
0.004340588,569.267
0.005364889,582.449
0.006599917,590.045
0.008409006,596.148
0.0106471,600.5395
0.01347842,603.873
0.0174008,606.692
0.0220374,608.754
0.0288725,610.62
0.0379485,612.122
0.0432212,612.728
0.0563305,613.762
0.0757048,614.68
0.0967475,615.3
0.121067,615.7739
0.148104,616.133
0.182104,616.452
0.230198,616.775
0.294028,617.097
0.376153,617.418
0.47515,617.811
0.539635,618.145
0.602891,618.616
0.644113,619.067
0.683964,619.697
0.723677,620.63
0.762441,622.152
0.7894,623.877
0.815017,626.201
0.840146,629.21
0.865212,632.982
0.930034,640.242
0.95885,640.867
0.983378,641.637

File: L.csv
Relative Pressure (P/Po),Quantity Adsorbed (cm3/g STP)
9.79E-03,106.654
1.30E-02,110.752
0.0169922,115.714
0.0219937,121.579
0.02998674,130
0.039658,138.187
0.0560226,148.195
0.0712954,155.557
0.104928,169.257
0.129699,177.907
0.159961,187.575
0.191746,197.238
0.222604,206.618
0.252936,216.333
0.284027,228.206
0.305135,240.827
0.316013,251.085
0.333871,295.263
0.343961,316.371
0.372991,345.038
0.427552,371.187
0.447576,372.249
0.476895,373.666
0.499736,374.655
0.529858,375.856
0.560582,376.981
0.591213,378.027
0.621879,379.047
0.652785,380.009
0.683268,380.934
0.713948,381.848
0.744564,382.772
0.775127,383.722
0.806788,384.713
0.83655,385.694
0.867019,386.798
0.897226,388.201
0.937869,391.638

File: M.csv
Relative Pressure (P/Po),Quantity Adsorbed (cm3/g STP)
0.001665872,157.585
0.00194442,163.677
0.002868962,180.628
0.003965587,196.425
0.004867865,207.399
0.005726495,216.475
0.006790925,226.366
0.007894831,235.419
0.008900371,242.722
0.009887064,249.227
0.0119982,260.56
0.0139958,270.16
0.0191974,291.424
0.023006,304.4
0.0288494,321.604
0.0382415,345.644
0.0500177,372.036
0.0570592,386.434
0.069002,409.055
0.07905353,426.579
0.0889275,442.809
0.098903,458.151
0.117843,485
0.137931,510.962
0.158643,536.062
0.178416,560.002
0.197221,584.645
0.214358,619.187
0.224922,714.24
0.235341,799.461
0.268275,833.823
0.295847,848.122
0.326119,862.951
0.342338,870.005
0.360029,876.912
0.380357,884.425
0.399925,891.297
0.448298,907.874
0.50004,924.876
0.549395,941.01
0.599734,957.862
0.64933,975.255
0.699352,994.079
0.749629,1015.81
0.798779,1041.15
0.847692,1075.89
0.896305,1130.84
0.946154,1251.21
0.99812,1851.15

File: N.csv
Relative Pressure (P/Po), Quantity Adsorbed (cm3/g STP)
0.001034,134.101
0.001108417,135.731
0.00118819,137.471
0.001273703,139.328
0.001365372,141.308
0.001463638,143.417
0.001568975,145.661
0.001681894,148.045
0.00180294,150.573
0.001932698,153.248
0.002071794,156.073
0.002220901,159.047
0.002380739,162.168
0.00255208,165.428
0.002735753,168.817
0.002932645,172.318
0.003143708,175.906
0.00336996,179.547
0.003612496,183.195
0.003872487,186.788
0.004151189,190.245
0.00444995,193.462
0.004770213,196.302
0.005113525,198.702
0.005481545,201.012
0.005876051,203.267
0.00629895,205.452
0.006752285,207.556
0.007238246,209.572
0.007759182,211.502
0.00831761,213.357
0.008916228,215.165
0.009557928,216.974
0.0102458,218.791
0.0109832,220.604
0.0117737,222.407
0.012621,224.197
0.0135293,225.974
0.01450305,227.744
0.0155468,229.518
0.0166657,231.321
0.01786517,233.191
0.0191509,235.171
0.0205292,237.193
0.0220067,239.239
0.0235905,241.312
0.02528833,243.421
0.02710833,245.583
0.0290593,247.825
0.0311507,250.175
0.0333926,252.453
0.03579589,254.734
0.0383721,257.281
0.0411338,260.463
0.0440941,264.315
0.0472676,269.053
0.0506694,275.251
0.0543161,282.996
0.05822525,288.552
0.0624157,293.141
0.0669078,296.677
0.0717231,299.379
0.076885,302.924
0.0824184,307.099
0.0883501,311.971
0.0947086,317.31
0.101525,321.51
0.108832,326.304
0.116664,334.122
0.12506,344.347
0.134061,356.084
0.143709,360.976
0.154052,362.694
0.165139,364.854
0.177024,367.746
0.189765,368.082
0.203422,369.808
0.218062,369.922
0.233756,371.354
0.25058,373.37
0.268614,373.801
0.287946,375.222
0.30867,375.897
0.330884,376.535
0.354698,377.907
0.380226,378.68
0.407591,379.821
0.436925,380.697
0.46837,381.042
0.502079,382.405
0.538213,383.645
0.576949,384.031
0.618472,384.902
0.662983,385.472
0.710698,386.729
0.761847,388.42
0.816677,388.77
0.875453,389.444
0.938459,391.117

File: O.csv
Relative Pressure (P/Po), Quantity Adsorbed (cm3/g STP)
0.009596,24.2625
0.009612,48.6125
0.009916,110.3375
0.010389,176.9
0.0110315,292.5
0.0115508,398.125
0.0120946,488
0.012523,524.8875
0.014087,563.2875
0.015418,597.0375
0.017685,640.6875
0.018549,696.1125
0.019567,741.0125
0.020351,784.6625
0.020587,811.9125
0.022229,841.95
0.024027,864.8625
0.025434,882.825
0.027544,918.125
0.029967,946
0.032625,973.5625
0.035154,1003.66
0.037262,1027.75
0.043028,1052.825
0.048236,1084.3
0.054746,1111.1
0.059644,1136.19
0.062374,1170.6
0.067892,1203.3
0.074278,1242.39
0.080293,1280.74
0.084014,1308.76
0.090585,1329.425
0.09759,1361.15
0.105525,1382.8
0.115814,1414.05
0.134969,1457.11
0.15282,1491.09
0.161188,1500.45
0.207176,1528.125
0.226389,1534.575
0.247586,1539.81
0.256944,1543.525
0.269588,1547.01
0.291032,1553.96
0.30975,1555.75
0.33423,1560.75
0.359331,1565.99
0.383316,1569.275
0.40854,1573.54
0.434137,1576.56
0.460167,1579.6
0.484834,1580.175
0.510306,1584.2
0.535346,1589.44
0.58598,1593.05
0.611212,1598.49
0.661582,1602.16
0.686571,1603.04
0.711659,1606.24
0.762915,1606.8
0.788102,1609.225
0.813091,1610.1
0.838867,1612.14
0.889237,1613.09
0.894846,1614.66
0.911964,1616.275
0.944823,1619.125

File: P.csv
Relative Pressure (P/Po), Quantity Adsorbed (cm3/g STP)
0.002546,117.283
0.005092,327.134
0.006288706,358.803
0.007638,382.705
0.009022805,404.698
0.010183,419.764
0.012729,444.48
0.015275,469.195
0.017821,475.397
0.020367,518.626
0.022913,543.342
0.025459,561.886
0.028004,605.1153
0.03055,629.831
0.033096,642.205
0.035642,654.578
0.038188,673.123
0.040734,691.668
0.045825,716.4141
0.050917,765.845
0.053463,784.389
0.056009,796.763
0.058555,821.4794
0.0611,877.051
0.063646,914.109
0.066192,926.482
0.068738,969.711
0.071284,1000.6
0.07383,1031.49
0.076376,1111.74
0.078921,1136.46
0.081467,1167.34
0.084013,1222.92
0.086559,1241.46
0.091651,1290.89
0.094197,1315.61
0.096742,1340.32
0.099288,1358.87
0.101835,1371.25
0.10438,1389.78
0.106926,1408.33
0.112018,1426.91
0.114563,1451.62
0.119655,1488.71
0.122201,1494.92
0.124747,1513.45
0.127293,1532
0.129839,1544.37
0.132384,1556.74
0.13493,1581.46
0.137476,1600.01
0.142568,1618.59
0.145114,1630.96
0.150205,1649.53
0.152751,1655.74
0.155297,1674.277
0.160388,1686.69
0.162935,1705.23
0.165481,1717.6
0.168026,1729.98
0.173118,1760.89
0.175664,1773.26
0.178209,1791.81
0.180756,1810.36
0.183302,1828.9
0.185847,1847.445
0.188394,1866.02
0.190939,1878.32
0.193485,1933.93
0.19603,1989.5
0.198577,2088.28
0.201122,2112.99
0.203668,2143.87
0.206215,2162.42
0.20876,2180.97
0.211306,2205.69
0.213851,2230.4
0.216398,2248.94
0.218943,2261.322
0.224036,2279.89
0.226581,2292.27
0.231673,2329.36
0.234219,2347.89
0.23931,2360.3
0.241856,2366.51
0.25204,2378.98
0.259677,2385.24
0.264769,2397.637
0.269861,2403.87
0.272406,2403.9
0.277498,2410.13
0.282589,2416.36
0.285136,2416.406
0.290227,2416.46
0.297865,2422.72
0.30041,2428.93
0.308048,2429.02
0.310595,2435.23
0.315686,2435.28
0.320778,2441.52
0.325869,2441.59
0.330961,2441.64
0.34369,2447.97
0.351328,2454.23
0.35642,2454.3
0.364057,2460.56
0.369149,2460.62
0.376786,2460.71
0.381878,2466.95
0.38697,2467.01
0.402245,2467.19
0.407337,2467.26
0.412428,2467.32
0.425158,2467.48
0.432796,2473.74
0.440432,2473.84
0.455708,2480.19
0.465891,2480.32
0.488804,2486.77
0.501533,2493.08
0.511717,2493.22
0.516808,2493.28
0.524446,2499.54
0.529538,2499.61
0.537176,2499.702
0.542267,2499.76
0.549905,2499.85
0.560088,2499.976
0.570271,2500.1
0.580454,2506.4
0.593184,2512.717
0.600822,2512.81
0.611005,2512.94
0.623734,2513.09
0.631372,2519.36
0.636464,2519.42
0.654285,2525.81
0.661922,2525.9
0.672106,2526.02
0.687381,2526.21
0.689927,2526.24
0.702655,2532.57
0.710293,2532.66
0.715385,2532.719
0.733206,2532.94
0.735752,2532.97
0.745935,2533.09
0.753573,2533.18
0.763756,2533.31
0.768848,2533.38
0.77394,2539.61
0.779031,2539.66
0.784123,2539.73
0.796852,2539.88
0.81722,2540.13
0.832494,2546.49
0.840132,2546.58
0.847769,2546.68
0.863045,2553.04
0.868136,2553.09
0.87832,2553.23
0.885957,2553.31
0.903778,2553.53
0.957242,2560.35
0.964878,2560.45
0.987791,2566.9
0.992883,2573.134

File: Q.csv
Relative Pressure (P/Po), Quantity Adsorbed (cm3/g STP)
0.000145,31.8992
0.000228,50.1274
0.000249,54.6844
0.00029,63.7985
0.000311,68.3555
0.000353,77.4699
0.000436,95.6977
0.003921,109.399
0.004004,127.628
0.004149,159.527
0.004232,177.755
0.004315,195.983
0.00778,205.128
0.007842,218.799
0.011307,227.944
0.014793,241.646
0.01832,264.462
0.021785,273.607
0.02527,287.308
0.028735,296.453
0.03222,310.156
0.035706,323.857
0.039171,333.002
0.042615,337.59
0.0461,351.292
0.049565,360.437
0.05303,369.581
0.053071,378.695
0.056536,387.841
0.05998,392.429
0.066868,401.604
0.070333,410.749
0.077242,424.481
0.080686,429.069
0.084171,442.771
0.087615,447.359
0.091101,461.061
0.09803,479.35
0.104939,493.083
0.115333,520.518
0.129089,534.312
0.132595,552.571
0.139525,570.861
0.149878,589.181
0.16023,607.502
0.17743,625.884
0.191247,653.35
0.205003,667.144
0.215335,680.907
0.222223,690.083
0.225709,703.784
0.232617,717.517
0.236144,740.333
0.239651,758.594
0.239734,776.82
0.239816,795.045
0.243302,808.752
0.243406,831.534
0.246892,845.241
0.257285,872.669
0.264153,877.293
0.274485,891.053
0.281332,891.113
0.284796,900.263
0.295108,909.466
0.305419,918.677
0.319153,927.91
0.329486,941.677
0.346644,950.94
0.356935,955.594
0.367225,960.241
0.387806,969.541
0.40152,974.218
0.415234,978.902
0.425503,978.992
0.44264,983.707
0.463201,988.444
0.483762,993.188
0.497475,997.865
0.518015,998.053
0.538596,1007.35
0.548866,1007.44
0.559136,1007.53
0.565982,1007.59
0.583119,1012.31
0.596813,1012.43
0.631066,1017.29
0.65505,1022.07
0.692727,1026.96
0.713267,1027.15
0.73723,1027.37
0.764616,1027.61
0.764637,1032.17
0.792043,1036.97
0.81943,1037.22
0.822875,1041.8
0.857107,1042.11
0.891381,1051.53
0.915344,1051.75
0.918788,1056.34
0.956444,1056.68
0.966735,1061.32
0.966756,1065.89
0.980469,1070.56
0.990781,1079.77
0.994225,1084.36